File: X-ray/data/input/XRD/U1587A_2H3_66_67_CYL11802171.uxd
;content of C:\DATA\IN\U1587A_2H3_66_67_CYL11802171.raw - (Diffrac Plus V4 file)
_FILEVERSION = 3
_SAMPLE = U1587A_2H3_66_67_CYL11802171
_+SAMPLE = Bulk Samples
_SITE = JOIDES Resolution
_USER = Heather Barnes and Kristin Bronk
_GONIOMETER_CODE = 22
_STAGE_CODE = 0
; Goniometer : Unknown, stage : Standard
_GONIOMETER_RADIUS = 200.5
_FIXED_DIVSLIT = 0.6
_FIXED_SAMPLESLIT = 1
_SOLLER_SLITS = 2
_FIXED_DETSLIT = 9.5
_MONOCHROMATOR = 0
; Incident beam monochromator : None
_SOLLER_SLITS_2 = 2
_THIN_FILM = N
_BETA_FILTER = N
_FIXED_ANTISLIT = 5.28
_ANALYZER_CODE = 0
; Received beam analyzer : None
_DATEMEASURED = 03-Nov-2022 21:13:08
_WL_UNIT = A
_WL1 = 1.5406
_WL2 = 1.54439
_WL3 = 1.39222
_WLRATIO = 0.5
_ANODE = Cu
_V4_INF_CREATOR = XRDWizard
_V4_INF_CREATOR_VERSION = V2.9.0.22
_V4_INF_WIZARD_VERSION = V2.9.0.22
_V4_INF_WIZARD_ADDINS = V2.9.0.22
_V4_INF_WIZARD_DOCTYPE = XRD
_V4_INF_COMMENT = Bulk Samples
_V4_INF_OSUSER = daq
_V4_INF_USER = Heather Barnes and Kristin Bronk
_V4_INF_SITE = JOIDES Resolution
_V4_INF_SAMPLEID = U1587A_2H3_66_67_CYL11802171

; Data for range 1
_DRIVE = COUPLED
_STEPTIME = 146.8
_STEPSIZE = 0.008245
_STEPMODE = C
_START = 4
_THETA = 2
_2THETA = 4
_PHI = 0
_DIVERGENCE = 0.298
_DETECTOR = 1
; Detector type : Scintillation counter
_HV = 879.8
_GAIN = 80
_LLD = 0.6655
_ULD = 1.6455
_DETECTORSLIT = unkn
_TIMESTARTED = 23
_ROTATION_SPEED = 30
_KV = 40
_MA = 40
_RANGE_WL = 1.5406
_3DPLANE = 0
_V4_PSD2THETA = 2.4564
_V4_PSDCHANNEL1 = 0
_V4_PSDAPERTURE = 9999
_V4_PSDTYPE = 4
_V4_PSDFIXED = 0
_V4_D8_DIBNUM = 1
_V4_DETECTORNAME = Detector 1
_V4_TTLDETECTOR
_V4_DETECTORTYPE = 1
_V4_DETECTORFLAGS = 256
_V4_DETECTORHV = 879.8
_V4_DETECTORGAIN = 80
_V4_DETECTORLLD1 = 0.6655
_V4_DETECTORWW1 = 0.98
_V4_DETECTORLLD2 = 0
_V4_DETECTORWW2 = 0
_V4_DETECTORPS = 9999
_V4_DETECTORDT = 0
_V4_DETECTORPILEUPTIME = 0
_V4_COUNTERS_MASK = 1
_V4_DRIVES_MASK = 0
_V4_ENCODERS_MASK = 0
_COUNTS = 1
; Cnt2_D1
7381
7271
7008
6832
6647
6485
6335
6161
6278
6124
6009
5775
5775
5855
5635
5664
5570
5558
5450
5532
5480
5337
5300
5411
5327
5359
5282
5270
5196
5286
5279
5454
5345
5447
5200
5303
5299
5265
5424
5204
5244
5342
5556
5666
5795
5877
5996
5900
6016
6211
6151
6479
6747
6739
6800
6736
6785
6893
6891
6984
6622
6466
6522
6202
5935
5665
5502
5454
5235
5222
5043
5105
5025
4977
4791
4966
4869
4888
4990
4792
4847
4712
4731
4588
4696
4683
4694
4694
4628
4654
4643
4871
4714
4891
5004
5171
5726
6587
7531
6642
4855
4379
4395
4224
4144
4142
3998
3905
3764
3657
3740
3722
3568
3586
3553
3411
3424
3433
3446
3365
3160
3312
3161
3201
3125
3148
3083
3131
3024
3076
3133
3155
3042
3026
3001
2856
3067
2886
2878
2905
2859
2918
2898
2788
2809
2858
2769
2689
2744
2761
2754
2719
2728
2701
2790
2763
2701
2671
2781
2643
2665
2744
2807
2774
2833
2930
2980
3207
3568
3686
3867
3798
4178
3662
2963
2707
2572
2482
2425
2424
2444
2376
2316
2278
2393
2278
2360
2210
2242
2207
2211
2155
2139
2185
2168
2195
2185
2198
2097
2226
2046
2076
2050
2129
2086
2152
2004
2036
1974
2045
2002
2080
2021
2017
2016
1964
1979
2002
2001
1965
1929
2051
2051
1981
2028
1962
2045
1992
1924
1946
1980
1933
2018
1971
1989
1935
1936
1924
1977
1954
2010
1851
1866
1989
1868
1958
1908
1867
1921
1930
1922
1835
1877
1924
1854
1859
1850
1799
1907
1887
1872
1873
1909
1901
1852
1950
1932
1929
1888
1965
1896
1934
1937
1936
2101
2113
2292
2415
2799
2658
2350
2150
2036
2002
1944
1946
1986
1916
1911
1870
1946
1899
1981
1925
1992
1893
2019
2013
2043
2216
2207
2018
1935
1888
1848
1900
1938
1988
1959
2044
2071
2161
2132
2263
2317
2492
2778
3065
3416
3631
3773
3627
3448
3157
2918
2760
2660
2643
2643
2470
2482
2367
2446
2365
2352
2260
2516
2360
2660
3430
5285
6045
4088
2648
2383
2249
2175
2206
2131
2162
2169
2149
2052
2080
2142
2067
2069
2060
2032
2044
1970
1919
1981
2087
2210
2239
2132
2003
1990
1957
1956
1979
1996
1924
1907
1945
1919
1974
1965
2058
2027
2273
2328
2471
2913
3333
3213
2464
2195
2010
1881
1962
1968
2061
2096
2118
2215
2177
2088
2099
2252
2097
2100
2120
2066
2129
2142
2124
2115
2214
2166
2077
2067
1954
2016
2076
2003
2026
2091
2168
2302
2388
2560
2458
2363
2390
2486
2658
2837
2816
2861
2655
2607
2401
2472
2396
2366
2423
2208
2186
2148
2116
2153
2183
2154
2106
2096
2113
2258
2286
2391
2519
2566
2844
3356
4404
8414
18566
19351
13484
6365
4846
3946
3273
2746
2603
2508
2437
2277
2454
2349
2409
2496
2602
2624
2488
2413
2288
2439
2448
2654
2801
2862
3247
3368
2836
2403
2177
2225
2167
2176
2060
2043
2089
2018
1978
2084
1987
2033
1959
1991
1969
1991
2041
1983
2088
2167
2181
2386
2424
2830
3704
6923
14041
14493
11051
6062
3545
2730
2360
2248
2321
2464
2384
2306
2201
2043
2089
2071
2026
2056
1999
1915
1928
1913
2010
2001
1938
2015
1950
2179
2308
2441
2802
3413
3579
3033
2388
2063
2008
2176
2178
2065
2064
2189
2244
2195
2018
2289
2984
3281
2682
2305
1976
1905
1917
1888
1939
1862
1809
1708
1712
1727
1686
1637
1610
1647
1576
1624
1585
1599
1562
1566
1563
1512
1673
1633
1609
1618
1699
1727
1615
1652
1685
1645
1663
1582
1682
1531
1647
1664
1569
1606
1582
1618
1656
1665
1674
1629
1712
1713
1706
1766
1944
1878
2015
2168
2306
2414
2420
2431
2427
2631
2556
2738
2854
2920
2889
2789
2661
2401
2275
2166
2039
2140
1971
2010
2031
2031
1871
1973
1894
2032
2020
2197
2588
3396
3223
3078
2618
2138
1924
1921
1872
2000
2039
2211
2855
3043
2599
2477
2125
2079
1955
1996
1947
1891
1923
1885
1881
1882
1829
1851
1956
1984
1985
1991
1955
1924
1943
1966
2000
2075
1959
1899
1819
1749
1704
1791
1611
1698
1668
1629
1737
1668
1602
1651
1677
1661
1671
1639
1681
1645
1689
1602
1599
1566
1608
1604
1591
1568
1657
1754
1945
2261
3365
4272
4124
3363
2739
2086
1760
1718
1620
1619
1533
1635
1685
1754
1681
1634
1704
1836
2079
1993
1887
1764
1629
1529
1628
1577
1560
1524
1609
1555
1643
1671
1706
1796
1791
1769
1847
1780
1748
1658
1571
1593
1471
1519
1545
1503
1546
1537
1498
1580
1564
1539
1694
1636
1658
1654
1588
1673
1607
1663
1770
2185
2559
2110
2034
1886
1665
1507
1584
1624
1638
1630
1663
1585
1775
2060
3009
3322
2750
2570
2161
1784
1667
1618
1536
1470
1507
1462
1508
1495
1470
1464
1500
1520
1550
1498
1509
1477
1405
1476
1434
1443
1469
1406
1466
1462
1518
1519
1541
1563
1594
1610
1656
1631
1632
1612
1716
1636
1798
1852
1893
2348
2636
2497
2321
2220
1919
1790
1796
1997
2074
1826
1862
1742
1602
1589
1524
1509
1610
1457
1422
1457
1432
1508
1426
1496
1470
1380
1307
1433
1425
1416
1421
1487
1539
1678
1934
1994
1860
1869
1796
1718
1980
2394
3295
3145
2767
2577
2103
1722
1526
1521
1486
1453
1499
1511
1428
1488
1501
1518
1541
1588
1817
2209
3178
3238
2859
2778
2194
1842
1537
1493
1403
1408
1338
1393
1374
1375
1359
1411
1423
1375
1419
1387
1385
1391
1410
1321
1401
1311
1368
1392
1414
1457
1467
1533
2017
3099
2851
2169
2521
1851
1496
1402
1471
1473
1508
1436
1482
1360
1462
1363
1295
1444
1368
1374
1436
1498
1386
1395
1343
1319
1269
1339
1243
1316
1204
1244
1324
1254
1233
1284
1264
1322
1257
1264
1278
1274
1325
1237
1316
1287
1322
1261
1293
1305
1373
1308
1342
1286
1362
1355
1372
1336
1335
1378
1396
1258
1346
1424
1362
1380
1315
1391
1375
1383
1383
1387
1429
1420
1422
1428
1499
1532
1541
1526
1512
1476
1495
1484
1513
1527
1529
1486
1469
1494
1395
1420
1498
1490
1515
1570
1744
1976
1875
1628
1823
1724
1542
1642
1732
1695
1781
1723
1712
1596
1634
1574
1483
1583
1542
1555
1591
1537
1554
1611
1478
1542
1483
1404
1488
1614
1521
1597
1568
1649
1774
1835
1783
1759
1668
1685
1551
1430
1480
1435
1413
1469
1399
1433
1421
1432
1561
1801
2186
2088
1950
1972
1891
1680
1550
1450
1466
1398
1361
1383
1335
1443
1459
1355
1422
1414
1348
1346
1370
1337
1285
1225
1348
1288
1398
1350
1357
1385
1381
1415
1358
1383
1366
1340
1429
1347
1372
1438
1440
1422
1392
1460
1510
1406
1484
1442
1499
1646
1797
2306
2659
2017
1874
1968
1832
1598
1536
1460
1445
1437
1496
1500
1527
1603
1925
1819
1813
1735
1764
1724
1624
1705
1682
1617
1655
1558
1655
1738
1741
1823
1731
1842
1790
1775
1769
1874
1777
1754
1823
1678
1713
1726
1587
1638
1576
1571
1460
1490
1507
1486
1505
1493
1390
1368
1458
1481
1349
1359
1357
1436
1376
1424
1473
1451
1514
1464
1424
1413
1429
1361
1373
1324
1333
1296
1260
1369
1345
1356
1315
1296
1336
1422
1551
1418
1385
1428
1397
1327
1261
1339
1274
1348
1384
1382
1554
1816
1686
1663
1606
1609
1458
1452
1421
1360
1337
1382
1292
1346
1277
1369
1362
1406
1418
1506
1548
1526
1450
1443
1491
1461
1370
1395
1372
1358
1320
1425
1321
1359
1291
1242
1352
1244
1246
1246
1229
1329
1272
1219
1180
1296
1250
1255
1296
1254
1249
1273
1319
1276
1293
1310
1310
1311
1293
1351
1408
1423
1668
1975
1680
1521
1521
1692
1561
1532
1783
2060
1906
1738
1863
2128
1748
1514
1562
1481
1405
1348
1294
1264
1232
1290
1249
1296
1326
1335
1317
1307
1447
1491
1352
1372
1439
1468
1393
1332
1370
1318
1402
1278
1345
1344
1284
1308
1326
1288
1298